SEESION 1,,Period,Group,Subject ID,Alternative Chosen,Role Played,Payoff,,,SESSION 2,,Period,Group,Subject ID,Alternative Chosen,Role Played,Payoff,,1,1,31,1,2,105,,,,,1,1,3,1,3,80,,1,1,19,1,1,105,,,,,1,1,5,2,1,46,,1,1,17,1,2,144,,,,,1,1,6,2,2,90,,1,1,10,1,2,105,,,,,1,1,12,1,1,46,,1,1,11,1,2,105,,,,,1,1,13,2,3,80,,1,1,24,1,2,105,,,,,1,1,15,2,1,21,,1,1,13,1,1,105,,,,,1,1,20,1,1,46,,1,1,26,1,1,105,,,,,1,1,21,2,2,95,,1,1,22,2,2,105,,,,,1,2,0,2,3,80,,1,1,29,1,2,105,,,,,1,2,7,1,2,90,,1,1,12,1,3,80,,,,,1,2,9,2,2,90,,1,1,21,1,2,105,,,,,1,2,10,1,3,80,,1,2,0,1,2,105,,,,,1,2,16,1,1,21,,1,2,30,1,1,105,,,,,1,2,17,2,2,90,,1,2,8,1,3,80,,,,,1,2,19,2,2,95,,1,2,27,1,3,80,,,,,1,2,23,2,1,21,,1,2,4,1,1,105,,,,,1,3,1,2,1,46,,1,2,33,1,3,80,,,,,1,3,2,2,2,90,,1,2,9,1,2,105,,,,,1,3,4,2,3,80,,1,2,25,1,1,105,,,,,1,3,8,2,3,80,,1,2,34,1,2,105,,,,,1,3,11,2,2,90,,1,2,1,1,1,105,,,,,1,3,14,2,1,46,,1,2,7,1,2,105,,,,,1,3,18,2,3,80,,1,2,35,1,3,80,,,,,1,3,22,2,2,90,,1,3,32,1,2,144,,,,,2,1,3,2,3,80,,1,3,6,2,3,80,,,,,2,1,5,1,3,80,,1,3,14,2,1,105,,,,,2,1,6,1,2,170,,1,3,23,1,3,80,,,,,2,1,12,1,1,250,,1,3,15,1,2,144,,,,,2,1,13,1,1,250,,1,3,16,1,2,105,,,,,2,1,15,1,3,80,,1,3,18,1,1,105,,,,,2,1,20,1,3,80,,1,3,2,1,3,80,,,,,2,1,21,1,3,80,,1,3,28,1,3,80,,,,,2,2,0,1,2,248,,1,3,20,2,1,105,,,,,2,2,7,1,1,250,,1,3,5,1,2,105,,,,,2,2,9,1,2,170,,1,3,3,1,3,80,,,,,2,2,10,1,1,250,,2,1,31,1,3,80,,,,,2,2,16,2,2,170,,2,1,19,2,3,80,,,,,2,2,17,1,2,248,,2,1,17,2,2,74,,,,,2,2,19,1,3,80,,2,1,10,1,3,80,,,,,2,2,23,2,2,170,,2,1,11,2,1,53,,,,,2,3,1,1,1,250,,2,1,24,1,3,80,,,,,2,3,2,1,1,250,,2,1,13,1,1,53,,,,,2,3,4,1,1,250,,2,1,26,1,3,80,,,,,2,3,8,1,2,170,,2,1,22,1,3,80,,,,,2,3,11,1,1,250,,2,1,29,1,3,80,,,,,2,3,14,1,2,170,,2,1,12,2,3,80,,,,,2,3,18,1,3,80,,2,1,21,2,2,78,,,,,2,3,22,1,1,250,,2,2,0,1,3,80,,,,,3,1,3,2,1,82,,2,2,30,1,3,80,,,,,3,1,5,1,1,52,,2,2,8,2,1,53,,,,,3,1,6,1,1,52,,2,2,27,1,1,53,,,,,3,1,12,2,2,220,,2,2,4,1,3,80,,,,,3,1,13,2,2,220,,2,2,33,1,3,80,,,,,3,1,15,2,3,80,,2,2,9,2,1,53,,,,,3,1,20,2,1,52,,2,2,25,2,2,74,,,,,3,1,21,2,1,82,,2,2,34,1,3,80,,,,,3,2,0,1,3,80,,2,2,1,1,2,74,,,,,3,2,7,2,3,80,,2,2,7,1,3,80,,,,,3,2,9,2,2,220,,2,2,35,1,2,74,,,,,3,2,10,1,1,52,,2,3,32,1,1,53,,,,,3,2,16,2,3,80,,2,3,6,1,3,80,,,,,3,2,17,2,3,80,,2,3,14,1,3,80,,,,,3,2,19,2,3,80,,2,3,23,2,3,80,,,,,3,2,23,1,2,220,,2,3,15,2,3,80,,,,,3,3,1,2,2,220,,2,3,16,1,1,53,,,,,3,3,2,2,2,220,,2,3,18,1,3,80,,,,,3,3,4,2,1,52,,2,3,2,2,1,53,,,,,3,3,8,1,2,150,,2,3,28,1,3,80,,,,,3,3,11,2,1,52,,2,3,20,1,2,74,,,,,3,3,14,2,3,80,,2,3,5,2,2,74,,,,,3,3,18,1,2,150,,2,3,3,1,3,80,,,,,3,3,22,2,3,80,,3,1,31,2,1,21,,,,,4,1,3,2,3,80,,3,1,19,1,1,6,,,,,4,1,5,2,2,180,,3,1,17,1,1,6,,,,,4,1,6,1,3,80,,3,1,10,2,1,6,,,,,4,1,12,2,1,92,,3,1,11,1,1,6,,,,,4,1,13,1,1,92,,3,1,24,2,1,21,,,,,4,1,15,2,1,92,,3,1,13,1,3,80,,,,,4,1,20,2,2,110,,3,1,26,2,1,6,,,,,4,1,21,1,1,122,,3,1,22,2,3,80,,,,,4,2,0,1,1,122,,3,1,29,2,3,80,,,,,4,2,7,1,2,110,,3,1,12,2,2,95,,,,,4,2,9,1,2,180,,3,1,21,2,3,80,,,,,4,2,10,2,2,180,,3,2,0,2,2,95,,,,,4,2,16,1,3,80,,3,2,30,2,1,21,,,,,4,2,17,2,2,180,,3,2,8,1,1,6,,,,,4,2,19,2,3,80,,3,2,27,1,2,130,,,,,4,2,23,1,3,80,,3,2,4,1,2,130,,,,,4,3,1,2,2,180,,3,2,33,2,1,6,,,,,4,3,2,2,1,92,,3,2,9,1,1,6,,,,,4,3,4,1,1,92,,3,2,25,2,2,130,,,,,4,3,8,2,3,80,,3,2,34,1,3,80,,,,,4,3,11,2,3,80,,3,2,1,2,3,80,,,,,4,3,14,2,2,180,,3,2,7,1,2,95,,,,,4,3,18,2,3,80,,3,2,35,2,2,95,,,,,4,3,22,2,1,122,,3,3,32,1,3,80,,,,,5,1,3,1,2,40,,3,3,6,2,2,95,,,,,5,1,5,1,2,95,,3,3,14,2,2,130,,,,,5,1,6,2,3,80,,3,3,23,2,1,6,,,,,5,1,12,2,1,130,,3,3,15,1,1,6,,,,,5,1,13,2,3,80,,3,3,16,2,3,80,,,,,5,1,15,2,2,40,,3,3,18,1,2,95,,,,,5,1,20,2,1,130,,3,3,2,2,2,95,,,,,5,1,21,2,1,130,,3,3,28,2,2,130,,,,,5,2,0,1,2,95,,3,3,20,1,1,21,,,,,5,2,7,1,3,80,,3,3,5,1,1,6,,,,,5,2,9,2,2,95,,3,3,3,2,2,130,,,,,5,2,10,1,1,0,,4,1,31,1,2,85,,,,,5,2,16,1,1,130,,4,1,19,2,2,85,,,,,5,2,17,2,2,95,,4,1,17,1,3,80,,,,,5,2,19,2,1,53,,4,1,10,2,2,85,,,,,5,2,23,1,2,40,,4,1,11,1,1,52,,,,,5,3,1,1,1,130,,4,1,24,2,1,125,,,,,5,3,2,2,2,40,,4,1,13,1,3,80,,,,,5,3,4,2,2,40,,4,1,26,1,1,52,,,,,5,3,8,2,3,80,,4,1,22,1,2,124,,,,,5,3,11,1,3,80,,4,1,29,1,3,80,,,,,5,3,14,2,3,80,,4,1,12,2,3,80,,,,,5,3,18,2,2,40,,4,1,21,1,1,52,,,,,5,3,22,2,3,80,,4,2,0,2,1,125,,,,,6,1,3,2,3,80,,4,2,30,1,2,85,,,,,6,1,5,1,3,80,,4,2,8,1,3,80,,,,,6,1,6,1,3,80,,4,2,27,1,3,80,,,,,6,1,12,2,2,74,,4,2,4,1,3,80,,,,,6,1,13,1,3,80,,4,2,33,1,2,85,,,,,6,1,15,1,1,40,,4,2,9,2,2,85,,,,,6,1,20,1,2,74,,4,2,25,2,1,52,,,,,6,1,21,1,3,80,,4,2,34,1,1,52,,,,,6,2,0,1,3,80,,4,2,1,1,3,80,,,,,6,2,7,1,1,53,,4,2,7,1,2,85,,,,,6,2,9,1,2,78,,4,2,35,1,2,85,,,,,6,2,10,2,3,80,,4,3,32,1,3,80,,,,,6,2,16,2,2,78,,4,3,6,1,2,85,,,,,6,2,17,1,3,80,,4,3,14,1,1,125,,,,,6,2,19,1,2,74,,4,3,23,1,1,125,,,,,6,2,23,2,3,80,,4,3,15,1,2,85,,,,,6,3,1,1,3,80,,4,3,16,1,1,125,,,,,6,3,2,1,2,78,,4,3,18,1,2,85,,,,,6,3,4,1,1,53,,4,3,2,2,2,85,,,,,6,3,8,1,3,80,,4,3,28,1,3,80,,,,,6,3,11,1,2,74,,4,3,20,2,1,125,,,,,6,3,14,1,1,53,,4,3,5,1,2,85,,,,,6,3,18,2,2,74,,4,3,3,1,1,52,,,,,6,3,22,1,3,80,,5,1,31,1,1,61,,,,,7,1,3,2,3,105,,5,1,19,1,3,80,,,,,7,1,5,1,3,105,,5,1,17,1,2,90,,,,,7,1,6,1,3,105,,5,1,10,1,1,46,,,,,7,1,12,1,2,105,,5,1,11,2,3,80,,,,,7,1,13,2,1,30,,5,1,24,1,2,55,,,,,7,1,15,1,2,0,,5,1,13,1,1,61,,,,,7,1,20,2,2,210,,5,1,26,2,3,80,,,,,7,1,21,2,3,105,,5,1,22,2,3,80,,,,,7,2,0,1,3,0,,5,1,29,2,2,55,,,,,7,2,7,2,1,30,,5,1,12,1,2,55,,,,,7,2,9,2,3,105,,5,1,21,2,3,80,,,,,7,2,10,1,3,105,,5,2,0,2,3,80,,,,,7,2,16,2,2,105,,5,2,30,2,2,90,,,,,7,2,17,1,3,105,,5,2,8,2,3,80,,,,,7,2,19,1,3,105,,5,2,27,1,3,80,,,,,7,2,23,1,1,105,,5,2,4,1,1,61,,,,,7,3,1,1,1,30,,5,2,33,1,2,90,,,,,7,3,2,2,3,105,,5,2,9,2,3,80,,,,,7,3,4,1,2,105,,5,2,25,1,3,80,,,,,7,3,8,1,3,105,,5,2,34,2,2,90,,,,,7,3,11,2,3,105,,5,2,1,2,3,80,,,,,7,3,14,1,2,105,,5,2,7,1,3,80,,,,,7,3,18,1,2,105,,5,2,35,2,3,80,,,,,7,3,22,1,3,0,,5,3,32,2,1,61,,,,,8,1,3,2,3,125,,5,3,6,2,3,80,,,,,8,1,5,1,2,85,,5,3,14,2,1,46,,,,,8,1,6,1,3,125,,5,3,23,2,3,80,,,,,8,1,12,1,1,125,,5,3,15,2,2,90,,,,,8,1,13,1,1,125,,5,3,16,2,2,90,,,,,8,1,15,1,3,125,,5,3,18,2,3,80,,,,,8,1,20,1,3,52,,5,3,2,2,2,90,,,,,8,1,21,1,3,125,,5,3,28,1,1,46,,,,,8,2,0,1,1,52,,5,3,20,1,2,55,,,,,8,2,7,1,1,125,,5,3,5,2,3,80,,,,,8,2,9,1,3,125,,5,3,3,1,3,80,,,,,8,2,10,2,3,125,,6,1,31,2,1,41,,,,,8,2,16,2,2,124,,6,1,19,1,2,75,,,,,8,2,17,1,2,124,,6,1,17,1,2,110,,,,,8,2,19,1,3,0,,6,1,10,2,3,80,,,,,8,2,23,2,1,125,,6,1,11,2,3,80,,,,,8,3,1,1,2,85,,6,1,24,2,2,110,,,,,8,3,2,1,2,85,,6,1,13,2,1,26,,,,,8,3,4,1,3,125,,6,1,26,2,3,80,,,,,8,3,8,1,2,85,,6,1,22,2,1,26,,,,,8,3,11,1,2,85,,6,1,29,2,3,80,,,,,8,3,14,1,2,85,,6,1,12,2,2,110,,,,,8,3,18,1,2,85,,6,1,21,2,2,110,,,,,8,3,22,1,3,125,,6,2,0,1,3,80,,,,,9,1,3,1,2,90,,6,2,30,2,2,75,,,,,9,1,5,1,2,90,,6,2,8,2,2,75,,,,,9,1,6,1,2,90,,6,2,27,1,2,110,,,,,9,1,12,2,1,61,,6,2,4,2,1,41,,,,,9,1,13,2,2,90,,6,2,33,2,1,26,,,,,9,1,15,2,2,55,,6,2,9,2,2,75,,,,,9,1,20,2,3,61,,6,2,25,1,3,80,,,,,9,1,21,1,2,55,,6,2,34,1,3,80,,,,,9,2,0,2,2,55,,6,2,1,2,3,80,,,,,9,2,7,1,2,55,,6,2,7,1,3,80,,,,,9,2,9,2,3,46,,6,2,35,2,1,26,,,,,9,2,10,1,1,61,,6,3,32,2,1,26,,,,,9,2,16,2,1,46,,6,3,6,2,3,80,,,,,9,2,17,2,1,46,,6,3,14,2,3,80,,,,,9,2,19,1,1,46,,6,3,23,2,1,26,,,,,9,2,23,2,3,46,,6,3,15,1,2,75,,,,,9,3,1,1,3,46,,6,3,16,1,1,41,,,,,9,3,2,2,2,90,,6,3,18,1,2,75,,,,,9,3,4,2,2,55,,6,3,2,2,2,110,,,,,9,3,8,1,2,90,,6,3,28,2,3,80,,,,,9,3,11,2,3,46,,6,3,20,1,2,110,,,,,9,3,14,2,2,55,,6,3,5,2,3,80,,,,,9,3,18,1,2,90,,6,3,3,2,1,26,,,,,9,3,22,2,1,61,,7,1,31,2,2,65,,,,,10,1,3,2,2,105,,7,1,19,2,1,145,,,,,10,1,5,1,3,105,,7,1,17,2,3,80,,,,,10,1,6,1,3,105,,7,1,10,1,2,65,,,,,10,1,12,2,3,105,,7,1,11,1,3,80,,,,,10,1,13,1,1,105,,7,1,24,1,1,145,,,,,10,1,15,1,2,105,,7,1,13,1,1,145,,,,,10,1,20,1,2,170,,7,1,26,1,2,65,,,,,10,1,21,1,1,105,,7,1,22,1,3,80,,,,,10,2,0,2,3,105,,7,1,29,1,2,104,,,,,10,2,7,1,3,105,,7,1,12,1,3,80,,,,,10,2,9,1,3,105,,7,1,21,1,1,72,,,,,10,2,10,1,1,105,,7,2,0,2,1,145,,,,,10,2,16,2,1,70,,7,2,30,1,1,145,,,,,10,2,17,2,2,170,,7,2,8,1,3,80,,,,,10,2,19,2,3,105,,7,2,27,2,3,80,,,,,10,2,23,1,3,105,,7,2,4,2,3,80,,,,,10,3,1,2,1,70,,7,2,33,1,1,72,,,,,10,3,2,1,1,105,,7,2,9,1,3,80,,,,,10,3,4,1,2,170,,7,2,25,2,3,80,,,,,10,3,8,1,2,105,,7,2,34,1,1,145,,,,,10,3,11,2,3,105,,7,2,1,1,3,80,,,,,10,3,14,2,3,105,,7,2,7,1,2,65,,,,,10,3,18,1,3,105,,7,2,35,1,2,65,,,,,10,3,22,2,1,70,,7,3,32,1,1,145,,,,,11,1,3,2,2,105,,7,3,6,1,3,80,,,,,11,1,5,1,1,32,,7,3,14,1,2,65,,,,,11,1,6,2,2,105,,7,3,23,1,3,80,,,,,11,1,12,1,3,150,,7,3,15,1,3,80,,,,,11,1,13,2,2,105,,7,3,16,2,3,80,,,,,11,1,15,1,1,105,,7,3,18,1,1,145,,,,,11,1,20,1,2,105,,7,3,2,1,1,145,,,,,11,1,21,1,3,150,,7,3,28,1,3,80,,,,,11,2,0,2,2,144,,7,3,20,2,1,145,,,,,11,2,7,1,2,144,,7,3,5,2,2,65,,,,,11,2,9,1,2,105,,7,3,3,1,2,104,,,,,11,2,10,2,2,105,,8,1,31,1,3,80,,,,,11,2,16,1,3,150,,8,1,19,2,3,80,,,,,11,2,17,2,2,105,,8,1,17,2,2,105,,,,,11,2,19,1,2,105,,8,1,10,1,1,105,,,,,11,2,23,1,2,105,,8,1,11,1,2,144,,,,,11,3,1,1,1,32,,8,1,24,2,1,105,,,,,11,3,2,1,1,105,,8,1,13,1,1,105,,,,,11,3,4,2,2,144,,8,1,26,1,2,144,,,,,11,3,8,2,2,105,,8,1,22,2,1,105,,,,,11,3,11,1,1,105,,8,1,29,2,2,144,,,,,11,3,14,2,1,105,,8,1,12,1,1,80,,,,,11,3,18,1,3,150,,8,1,21,2,2,144,,,,,11,3,22,1,3,150,,8,2,0,2,2,105,,,,,12,1,3,1,1,26,,8,2,30,2,2,144,,,,,12,1,5,1,2,75,,8,2,8,1,3,80,,,,,12,1,6,2,1,26,,8,2,27,1,1,105,,,,,12,1,12,1,2,75,,8,2,4,1,2,105,,,,,12,1,13,1,3,26,,8,2,33,1,1,105,,,,,12,1,15,2,3,41,,8,2,9,1,3,80,,,,,12,1,20,2,2,75,,8,2,25,1,2,144,,,,,12,1,21,1,3,41,,8,2,34,1,3,80,,,,,12,2,0,2,2,110,,8,2,1,2,1,105,,,,,12,2,7,1,2,75,,8,2,7,1,3,80,,,,,12,2,9,2,1,41,,8,2,35,2,3,80,,,,,12,2,10,1,3,26,,8,3,32,1,3,80,,,,,12,2,16,1,1,41,,8,3,6,2,3,80,,,,,12,2,17,1,3,41,,8,3,14,2,2,105,,,,,12,2,19,1,3,41,,8,3,23,2,1,105,,,,,12,2,23,1,2,75,,8,3,15,1,3,80,,,,,12,3,1,1,3,26,,8,3,16,1,1,105,,,,,12,3,2,1,1,41,,8,3,18,1,1,105,,,,,12,3,4,2,3,26,,8,3,2,2,2,105,,,,,12,3,8,1,2,75,,8,3,28,1,3,80,,,,,12,3,11,2,2,110,,8,3,20,1,2,144,,,,,12,3,14,2,3,41,,8,3,5,1,2,105,,,,,12,3,18,1,1,41,,8,3,3,1,3,80,,,,,12,3,22,1,1,41,,9,1,31,2,2,95,,,,,13,1,3,2,2,130,,9,1,19,1,3,80,,,,,13,1,5,2,1,110,,9,1,17,2,1,53,,,,,13,1,6,1,2,130,,9,1,10,2,3,80,,,,,13,1,12,1,1,110,,9,1,11,1,2,130,,,,,13,1,13,2,3,105,,9,1,24,1,3,80,,,,,13,1,15,2,2,105,,9,1,13,1,1,40,,,,,13,1,20,2,3,105,,9,1,26,1,1,53,,,,,13,1,21,2,3,105,,9,1,22,2,1,53,,,,,13,2,0,2,2,130,,9,1,29,2,2,130,,,,,13,2,7,2,2,105,,9,1,12,2,1,40,,,,,13,2,9,2,3,105,,9,1,21,2,2,95,,,,,13,2,10,1,3,105,,9,2,0,2,2,130,,,,,13,2,16,1,1,110,,9,2,30,2,1,53,,,,,13,2,17,2,1,105,,9,2,8,2,1,53,,,,,13,2,19,2,2,130,,9,2,27,1,2,130,,,,,13,2,23,1,3,105,,9,2,4,1,3,80,,,,,13,3,1,1,2,105,,9,2,33,2,3,80,,,,,13,3,2,2,1,110,,9,2,9,2,1,53,,,,,13,3,4,1,1,110,,9,2,25,2,1,40,,,,,13,3,8,2,3,105,,9,2,34,1,3,80,,,,,13,3,11,2,1,105,,9,2,1,2,2,130,,,,,13,3,14,1,2,130,,9,2,7,1,2,130,,,,,13,3,18,2,3,105,,9,2,35,2,3,80,,,,,13,3,22,2,1,105,,9,3,32,2,2,130,,,,,14,1,3,1,1,52,,9,3,6,2,1,40,,,,,14,1,5,2,3,124,,9,3,14,2,2,95,,,,,14,1,6,2,2,85,,9,3,23,2,1,40,,,,,14,1,12,1,2,124,,9,3,15,2,2,130,,,,,14,1,13,2,3,124,,9,3,16,2,1,53,,,,,14,1,15,2,3,124,,9,3,18,1,1,40,,,,,14,1,20,2,1,125,,9,3,2,2,3,80,,,,,14,1,21,2,2,124,,9,3,28,2,2,130,,,,,14,2,0,2,2,124,,9,3,20,1,3,80,,,,,14,2,7,2,2,124,,9,3,5,2,2,95,,,,,14,2,9,2,3,124,,9,3,3,1,2,130,,,,,14,2,10,1,2,124,,10,1,31,1,3,80,,,,,14,2,16,2,2,124,,10,1,19,1,1,210,,,,,14,2,17,2,3,124,,10,1,17,2,1,210,,,,,14,2,19,2,2,124,,10,1,10,2,3,80,,,,,14,2,23,2,1,125,,10,1,11,1,2,210,,,,,14,3,1,1,3,85,,10,1,24,1,2,210,,,,,14,3,2,2,3,85,,10,1,13,1,1,210,,,,,14,3,4,1,1,52,,10,1,26,1,1,210,,,,,14,3,8,2,3,124,,10,1,22,1,3,80,,,,,14,3,11,2,3,124,,10,1,29,1,2,210,,,,,14,3,14,1,3,85,,10,1,12,1,3,80,,,,,14,3,18,2,3,85,,10,1,21,1,3,80,,,,,14,3,22,1,1,52,,10,2,0,2,1,210,,,,,15,1,3,1,1,26,,10,2,30,1,1,210,,,,,15,1,5,2,2,110,,10,2,8,1,3,80,,,,,15,1,6,2,1,26,,10,2,27,1,2,210,,,,,15,1,12,2,1,26,,10,2,4,1,2,210,,,,,15,1,13,2,1,41,,10,2,33,1,3,80,,,,,15,1,15,2,1,26,,10,2,9,1,2,210,,,,,15,1,20,2,1,26,,10,2,25,1,1,210,,,,,15,1,21,2,3,150,,10,2,34,1,1,64,,,,,15,2,0,2,1,26,,10,2,1,2,3,80,,,,,15,2,7,2,2,75,,10,2,7,1,3,80,,,,,15,2,9,2,2,75,,10,2,35,1,3,80,,,,,15,2,10,1,1,26,,10,3,32,1,3,80,,,,,15,2,16,2,2,75,,10,3,6,1,3,80,,,,,15,2,17,1,1,26,,10,3,14,1,1,210,,,,,15,2,19,2,1,26,,10,3,23,1,1,210,,,,,15,2,23,1,1,26,,10,3,15,1,3,80,,,,,15,3,1,2,1,26,,10,3,16,1,1,64,,,,,15,3,2,2,1,26,,10,3,18,1,2,210,,,,,15,3,4,1,2,110,,10,3,2,1,2,210,,,,,15,3,8,2,1,41,,10,3,28,1,1,210,,,,,15,3,11,2,2,110,,10,3,20,2,3,80,,,,,15,3,14,2,2,75,,10,3,5,1,2,210,,,,,15,3,18,1,2,110,,10,3,3,1,3,80,,,,,15,3,22,2,3,150,,11,1,31,1,1,105,,,,,16,1,3,2,3,105,,11,1,19,1,2,105,,,,,16,1,5,1,1,29,,11,1,17,2,1,105,,,,,16,1,6,1,1,105,,11,1,10,2,3,80,,,,,16,1,12,1,2,105,,11,1,11,1,3,80,,,,,16,1,13,2,1,29,,11,1,24,2,2,105,,,,,16,1,15,2,1,29,,11,1,13,1,1,105,,,,,16,1,20,2,2,245,,11,1,26,1,3,80,,,,,16,1,21,1,2,105,,11,1,22,2,2,105,,,,,16,2,0,1,1,29,,11,1,29,1,1,80,,,,,16,2,7,2,3,105,,11,1,12,1,3,80,,,,,16,2,9,2,1,105,,11,1,21,1,1,80,,,,,16,2,10,1,2,105,,11,2,0,1,1,105,,,,,16,2,16,1,2,105,,11,2,30,1,3,80,,,,,16,2,17,2,2,105,,11,2,8,1,3,80,,,,,16,2,19,2,3,105,,11,2,27,1,3,80,,,,,16,2,23,1,2,245,,11,2,4,1,2,105,,,,,16,3,1,2,2,105,,11,2,33,1,1,105,,,,,16,3,2,1,3,105,,11,2,9,1,3,80,,,,,16,3,4,1,1,29,,11,2,25,1,1,105,,,,,16,3,8,2,1,29,,11,2,34,1,1,105,,,,,16,3,11,2,3,105,,11,2,1,1,2,105,,,,,16,3,14,2,2,105,,11,2,7,1,3,80,,,,,16,3,18,1,1,29,,11,2,35,1,2,105,,,,,16,3,22,2,1,29,,11,3,32,1,1,105,,,,,17,1,3,1,1,145,,11,3,6,1,3,80,,,,,17,1,5,2,1,72,,11,3,14,1,2,105,,,,,17,1,6,2,2,65,,11,3,23,1,1,105,,,,,17,1,12,1,1,72,,11,3,15,1,2,105,,,,,17,1,13,2,1,72,,11,3,16,1,1,80,,,,,17,1,15,1,2,104,,11,3,18,2,2,105,,,,,17,1,20,2,1,72,,11,3,2,1,2,112,,,,,17,1,21,2,2,65,,11,3,28,1,1,105,,,,,17,2,0,2,2,104,,11,3,20,2,1,105,,,,,17,2,7,2,1,72,,11,3,5,2,2,105,,,,,17,2,9,2,2,104,,11,3,3,1,2,112,,,,,17,2,10,2,1,72,,12,1,31,1,1,112,,,,,17,2,16,2,3,104,,12,1,19,2,1,112,,,,,17,2,17,2,1,0,,12,1,17,1,1,112,,,,,17,2,19,2,1,72,,12,1,10,2,2,144,,,,,17,2,23,2,3,104,,12,1,11,2,2,144,,,,,17,3,1,2,3,104,,12,1,24,1,3,80,,,,,17,3,2,2,2,104,,12,1,13,2,3,80,,,,,17,3,4,1,3,65,,12,1,26,2,1,112,,,,,17,3,8,2,1,72,,12,1,22,2,1,105,,,,,17,3,11,2,1,145,,12,1,29,2,1,112,,,,,17,3,14,1,2,104,,12,1,12,2,1,105,,,,,17,3,18,2,2,104,,12,1,21,2,1,105,,,,,17,3,22,2,1,72,,12,2,0,1,1,112,,,,,18,1,3,2,2,85,,12,2,30,2,3,80,,,,,18,1,5,1,2,85,,12,2,8,2,1,112,,,,,18,1,6,1,1,125,,12,2,27,2,3,80,,,,,18,1,12,1,2,85,,12,2,4,2,3,80,,,,,18,1,13,1,3,150,,12,2,33,2,3,80,,,,,18,1,15,1,3,150,,12,2,9,2,3,80,,,,,18,1,20,1,2,85,,12,2,25,2,1,112,,,,,18,1,21,1,1,125,,12,2,34,2,2,144,,,,,18,2,0,1,1,125,,12,2,1,2,3,80,,,,,18,2,7,1,1,125,,12,2,7,1,3,80,,,,,18,2,9,1,1,125,,12,2,35,2,1,112,,,,,18,2,10,1,2,85,,12,3,32,2,1,112,,,,,18,2,16,1,3,150,,12,3,6,2,2,144,,,,,18,2,17,1,1,125,,12,3,14,2,2,144,,,,,18,2,19,1,3,150,,12,3,23,2,1,105,,,,,18,2,23,1,1,125,,12,3,15,1,1,112,,,,,18,3,1,1,1,52,,12,3,16,2,3,80,,,,,18,3,2,1,1,125,,12,3,18,2,1,112,,,,,18,3,4,1,2,85,,12,3,2,2,3,80,,,,,18,3,8,1,1,125,,12,3,28,2,1,112,,,,,18,3,11,1,3,150,,12,3,20,1,1,112,,,,,18,3,14,2,1,125,,12,3,5,2,3,80,,,,,18,3,18,1,3,150,,12,3,3,2,2,144,,,,,18,3,22,1,2,85,,13,1,31,1,2,130,,,,,19,1,3,2,2,197,,13,1,19,2,1,78,,,,,19,1,5,1,2,105,,13,1,17,1,2,130,,,,,19,1,6,1,2,197,,13,1,10,2,1,78,,,,,19,1,12,2,1,77,,13,1,11,2,3,80,,,,,19,1,13,2,1,0,,13,1,24,1,2,130,,,,,19,1,15,2,3,105,,13,1,13,2,1,74,,,,,19,1,20,2,1,105,,13,1,26,2,2,95,,,,,19,1,21,2,3,105,,13,1,22,2,3,80,,,,,19,2,0,2,3,105,,13,1,29,2,3,80,,,,,19,2,7,2,2,197,,13,1,12,2,2,95,,,,,19,2,9,2,1,77,,13,1,21,2,2,130,,,,,19,2,10,1,1,77,,13,2,0,2,2,130,,,,,19,2,16,2,2,197,,13,2,30,2,2,130,,,,,19,2,17,2,2,105,,13,2,8,2,3,80,,,,,19,2,19,2,2,197,,13,2,27,2,3,80,,,,,19,2,23,2,1,77,,13,2,4,2,2,95,,,,,19,3,1,2,3,105,,13,2,33,2,3,80,,,,,19,3,2,1,2,105,,13,2,9,2,2,130,,,,,19,3,4,1,2,197,,13,2,25,2,1,78,,,,,19,3,8,2,3,105,,13,2,34,2,3,80,,,,,19,3,11,2,2,197,,13,2,1,2,3,80,,,,,19,3,14,2,3,105,,13,2,7,1,3,80,,,,,19,3,18,2,1,77,,13,2,35,2,1,78,,,,,19,3,22,2,1,77,,13,3,32,2,1,78,,,,,20,1,3,1,2,130,,13,3,6,2,1,78,,,,,20,1,5,2,1,21,,13,3,14,2,2,130,,,,,20,1,6,1,2,130,,13,3,23,2,1,78,,,,,20,1,12,2,1,6,,13,3,15,2,1,74,,,,,20,1,13,2,2,130,,13,3,16,1,3,80,,,,,20,1,15,2,3,150,,13,3,18,2,3,80,,,,,20,1,20,2,2,130,,13,3,2,2,3,80,,,,,20,1,21,2,1,6,,13,3,28,2,3,80,,,,,20,2,0,2,3,150,,13,3,20,1,1,78,,,,,20,2,7,2,1,6,,13,3,5,2,2,130,,,,,20,2,9,2,2,130,,13,3,3,2,3,80,,,,,20,2,10,2,2,130,,14,1,31,1,3,80,,,,,20,2,16,2,2,130,,14,1,19,1,2,208,,,,,20,2,17,2,3,150,,14,1,17,2,1,290,,,,,20,2,19,2,2,130,,14,1,10,1,3,80,,,,,20,2,23,2,1,6,,14,1,11,1,2,130,,,,,20,3,1,2,1,6,,14,1,24,2,3,80,,,,,20,3,2,1,1,21,,14,1,13,1,3,80,,,,,20,3,4,2,1,6,,14,1,26,1,3,80,,,,,20,3,8,1,3,150,,14,1,22,2,3,80,,,,,20,3,11,2,1,6,,14,1,29,1,3,80,,,,,20,3,14,1,3,150,,14,1,12,1,3,80,,,,,20,3,18,1,1,21,,14,1,21,1,1,144,,,,,20,3,22,2,3,150,,14,2,0,1,1,290,,,,,21,1,3,1,1,125,,14,2,30,1,1,290,,,,,21,1,5,2,1,125,,14,2,8,1,2,130,,,,,21,1,6,1,2,149,,14,2,27,1,2,130,,,,,21,1,12,2,2,149,,14,2,4,2,3,80,,,,,21,1,13,2,2,105,,14,2,33,1,2,130,,,,,21,1,15,2,3,105,,14,2,9,1,1,290,,,,,21,1,20,2,1,125,,14,2,25,1,1,290,,,,,21,1,21,2,3,105,,14,2,34,1,3,80,,,,,21,2,0,2,1,125,,14,2,1,1,1,290,,,,,21,2,7,2,2,149,,14,2,7,1,1,144,,,,,21,2,9,2,3,105,,14,2,35,1,2,130,,,,,21,2,10,1,3,105,,14,3,32,1,3,80,,,,,21,2,16,2,1,125,,14,3,6,1,3,80,,,,,21,2,17,2,2,149,,14,3,14,1,3,80,,,,,21,2,19,2,3,105,,14,3,23,1,2,130,,,,,21,2,23,1,2,149,,14,3,15,2,2,130,,,,,21,3,1,2,1,0,,14,3,16,2,2,208,,,,,21,3,2,2,1,125,,14,3,18,1,1,144,,,,,21,3,4,2,1,125,,14,3,2,1,3,80,,,,,21,3,8,2,3,105,,14,3,28,1,3,80,,,,,21,3,11,2,2,149,,14,3,20,2,1,290,,,,,21,3,14,1,1,125,,14,3,5,1,3,80,,,,,21,3,18,2,3,105,,14,3,3,1,2,130,,,,,21,3,22,2,1,125,,,,,,,,,,,,22,1,3,2,3,80,,,,,,,,,,,,22,1,5,2,3,80,,,,,,,,,,,,22,1,6,1,1,6,,,,,,,,,,,,22,1,12,1,1,21,,,,,,,,,,,,22,1,13,2,2,95,,,,,,,,,,,,22,1,15,2,1,6,,,,,,,,,,,,22,1,20,2,3,80,,,,,,,,,,,,22,1,21,1,1,6,,,,,,,,,,,,22,2,0,2,3,80,,,,,,,,,,,,22,2,7,1,2,95,,,,,,,,,,,,22,2,9,1,3,80,,,,,,,,,,,,22,2,10,1,2,95,,,,,,,,,,,,22,2,16,2,1,6,,,,,,,,,,,,22,2,17,1,3,80,,,,,,,,,,,,22,2,19,2,3,80,,,,,,,,,,,,22,2,23,1,3,80,,,,,,,,,,,,22,3,1,1,1,21,,,,,,,,,,,,22,3,2,1,2,130,,,,,,,,,,,,22,3,4,1,3,80,,,,,,,,,,,,22,3,8,1,2,130,,,,,,,,,,,,22,3,11,2,3,80,,,,,,,,,,,,22,3,14,1,3,80,,,,,,,,,,,,22,3,18,2,2,95,,,,,,,,,,,,22,3,22,2,3,80,,,,,,,,,,,,23,1,3,2,2,65,,,,,,,,,,,,23,1,5,1,1,145,,,,,,,,,,,,23,1,6,1,3,150,,,,,,,,,,,,23,1,12,1,2,65,,,,,,,,,,,,23,1,13,1,1,72,,,,,,,,,,,,23,1,15,1,3,150,,,,,,,,,,,,23,1,20,1,3,150,,,,,,,,,,,,23,1,21,1,3,150,,,,,,,,,,,,23,2,0,1,1,72,,,,,,,,,,,,23,2,7,1,2,65,,,,,,,,,,,,23,2,9,1,3,150,,,,,,,,,,,,23,2,10,2,1,72,,,,,,,,,,,,23,2,16,2,2,65,,,,,,,,,,,,23,2,17,2,3,150,,,,,,,,,,,,23,2,19,1,1,72,,,,,,,,,,,,23,2,23,2,2,65,,,,,,,,,,,,23,3,1,1,2,65,,,,,,,,,,,,23,3,2,1,1,145,,,,,,,,,,,,23,3,4,1,3,150,,,,,,,,,,,,23,3,8,1,3,150,,,,,,,,,,,,23,3,11,1,3,150,,,,,,,,,,,,23,3,14,2,1,145,,,,,,,,,,,,23,3,18,1,3,150,,,,,,,,,,,,23,3,22,1,2,65,,,,,,,,,,,,24,1,3,1,1,46,,,,,,,,,,,,24,1,5,2,3,150,,,,,,,,,,,,24,1,6,2,1,46,,,,,,,,,,,,24,1,12,2,1,46,,,,,,,,,,,,24,1,13,2,1,46,,,,,,,,,,,,24,1,15,2,3,150,,,,,,,,,,,,24,1,20,2,2,90,,,,,,,,,,,,24,1,21,2,2,90,,,,,,,,,,,,24,2,0,2,3,150,,,,,,,,,,,,24,2,7,2,1,46,,,,,,,,,,,,24,2,9,2,2,90,,,,,,,,,,,,24,2,10,1,1,61,,,,,,,,,,,,24,2,16,2,2,90,,,,,,,,,,,,24,2,17,1,2,90,,,,,,,,,,,,24,2,19,2,2,90,,,,,,,,,,,,24,2,23,2,3,150,,,,,,,,,,,,24,3,1,2,1,46,,,,,,,,,,,,24,3,2,2,2,90,,,,,,,,,,,,24,3,4,2,3,150,,,,,,,,,,,,24,3,8,1,3,150,,,,,,,,,,,,24,3,11,2,3,150,,,,,,,,,,,,24,3,14,1,1,61,,,,,,,,,,,,24,3,18,2,1,46,,,,,,,,,,,,24,3,22,2,1,61,,,,,,,,,,,,25,1,3,2,1,105,,,,,,,,,,,,25,1,5,1,3,80,,,,,,,,,,,,25,1,6,1,2,105,,,,,,,,,,,,25,1,12,1,3,80,,,,,,,,,,,,25,1,13,2,3,80,,,,,,,,,,,,25,1,15,1,1,32,,,,,,,,,,,,25,1,20,1,2,144,,,,,,,,,,,,25,1,21,2,3,80,,,,,,,,,,,,25,2,0,1,1,105,,,,,,,,,,,,25,2,7,2,3,80,,,,,,,,,,,,25,2,9,2,2,105,,,,,,,,,,,,25,2,10,1,1,32,,,,,,,,,,,,25,2,16,1,3,80,,,,,,,,,,,,25,2,17,1,1,105,,,,,,,,,,,,25,2,19,1,2,105,,,,,,,,,,,,25,2,23,1,2,144,,,,,,,,,,,,25,3,1,1,1,105,,,,,,,,,,,,25,3,2,1,2,105,,,,,,,,,,,,25,3,4,1,2,105,,,,,,,,,,,,25,3,8,1,1,105,,,,,,,,,,,,25,3,11,1,1,32,,,,,,,,,,,,25,3,14,2,3,80,,,,,,,,,,,,25,3,18,1,2,105,,,,,,,,,,,,25,3,22,1,2,105,,,,,,,,,,,,26,1,3,1,1,16,,,,,,,,,,,,26,1,5,2,3,80,,,,,,,,,,,,26,1,6,1,2,95,,,,,,,,,,,,26,1,12,2,3,80,,,,,,,,,,,,26,1,13,2,3,80,,,,,,,,,,,,26,1,15,2,2,120,,,,,,,,,,,,26,1,20,2,2,0,,,,,,,,,,,,26,1,21,2,3,80,,,,,,,,,,,,26,2,0,1,1,16,,,,,,,,,,,,26,2,7,2,1,21,,,,,,,,,,,,26,2,9,2,2,95,,,,,,,,,,,,26,2,10,1,3,80,,,,,,,,,,,,26,2,16,2,3,80,,,,,,,,,,,,26,2,17,2,1,16,,,,,,,,,,,,26,2,19,2,3,80,,,,,,,,,,,,26,2,23,1,2,120,,,,,,,,,,,,26,3,1,2,3,80,,,,,,,,,,,,26,3,2,2,1,21,,,,,,,,,,,,26,3,4,1,1,16,,,,,,,,,,,,26,3,8,1,3,80,,,,,,,,,,,,26,3,11,2,2,120,,,,,,,,,,,,26,3,14,1,2,120,,,,,,,,,,,,26,3,18,2,1,21,,,,,,,,,,,,26,3,22,2,1,21,,,,,,,,,,,,27,1,3,1,1,26,,,,,,,,,,,,27,1,5,2,1,26,,,,,,,,,,,,27,1,6,2,1,26,,,,,,,,,,,,27,1,12,2,1,26,,,,,,,,,,,,27,1,13,2,1,41,,,,,,,,,,,,27,1,15,2,2,110,,,,,,,,,,,,27,1,20,2,2,110,,,,,,,,,,,,27,1,21,2,1,26,,,,,,,,,,,,27,2,0,2,3,110,,,,,,,,,,,,27,2,7,1,3,75,,,,,,,,,,,,27,2,9,2,1,26,,,,,,,,,,,,27,2,10,1,2,75,,,,,,,,,,,,27,2,16,2,3,110,,,,,,,,,,,,27,2,17,2,3,75,,,,,,,,,,,,27,2,19,2,1,26,,,,,,,,,,,,27,2,23,1,3,110,,,,,,,,,,,,27,3,1,2,1,26,,,,,,,,,,,,27,3,2,2,3,75,,,,,,,,,,,,27,3,4,2,3,110,,,,,,,,,,,,27,3,8,1,2,110,,,,,,,,,,,,27,3,11,2,3,110,,,,,,,,,,,,27,3,14,2,3,110,,,,,,,,,,,,27,3,18,2,1,26,,,,,,,,,,,,27,3,22,2,2,110,,,,,,,,,,,,28,1,3,2,2,85,,,,,,,,,,,,28,1,5,1,3,80,,,,,,,,,,,,28,1,6,1,3,80,,,,,,,,,,,,28,1,12,1,3,80,,,,,,,,,,,,28,1,13,1,2,85,,,,,,,,,,,,28,1,15,1,3,80,,,,,,,,,,,,28,1,20,1,2,124,,,,,,,,,,,,28,1,21,1,1,125,,,,,,,,,,,,28,2,0,1,1,52,,,,,,,,,,,,28,2,7,2,2,85,,,,,,,,,,,,28,2,9,1,2,85,,,,,,,,,,,,28,2,10,2,1,125,,,,,,,,,,,,28,2,16,1,1,125,,,,,,,,,,,,28,2,17,1,2,85,,,,,,,,,,,,28,2,19,1,3,80,,,,,,,,,,,,28,2,23,1,3,80,,,,,,,,,,,,28,3,1,1,1,125,,,,,,,,,,,,28,3,2,1,3,80,,,,,,,,,,,,28,3,4,1,1,125,,,,,,,,,,,,28,3,8,1,3,80,,,,,,,,,,,,28,3,11,1,2,85,,,,,,,,,,,,28,3,14,2,2,85,,,,,,,,,,,,28,3,18,1,2,124,,,,,,,,,,,,28,3,22,1,1,125,,,,,,,,,,,,29,1,3,1,2,55,,,,,,,,,,,,29,1,5,2,2,90,,,,,,,,,,,,29,1,6,2,2,90,,,,,,,,,,,,29,1,12,2,2,55,,,,,,,,,,,,29,1,13,2,2,90,,,,,,,,,,,,29,1,15,2,1,46,,,,,,,,,,,,29,1,20,2,3,80,,,,,,,,,,,,29,1,21,1,1,46,,,,,,,,,,,,29,2,0,2,3,80,,,,,,,,,,,,29,2,7,1,2,0,,,,,,,,,,,,29,2,9,2,2,90,,,,,,,,,,,,29,2,10,1,3,80,,,,,,,,,,,,29,2,16,2,3,80,,,,,,,,,,,,29,2,17,2,2,55,,,,,,,,,,,,29,2,19,2,3,80,,,,,,,,,,,,29,2,23,2,2,55,,,,,,,,,,,,29,3,1,2,1,46,,,,,,,,,,,,29,3,2,2,3,80,,,,,,,,,,,,29,3,4,2,1,61,,,,,,,,,,,,29,3,8,2,2,90,,,,,,,,,,,,29,3,11,2,2,90,,,,,,,,,,,,29,3,14,1,3,80,,,,,,,,,,,,29,3,18,2,1,46,,,,,,,,,,,,29,3,22,2,3,80,,,,,,,,,,,,30,1,3,1,1,41,,,,,,,,,,,,30,1,5,2,3,80,,,,,,,,,,,,30,1,6,2,3,80,,,,,,,,,,,,30,1,12,2,3,80,,,,,,,,,,,,30,1,13,2,3,80,,,,,,,,,,,,30,1,15,2,3,80,,,,,,,,,,,,30,1,20,2,1,26,,,,,,,,,,,,30,1,21,1,2,110,,,,,,,,,,,,30,2,0,2,2,110,,,,,,,,,,,,30,2,7,2,3,80,,,,,,,,,,,,30,2,9,2,2,110,,,,,,,,,,,,30,2,10,2,1,26,,,,,,,,,,,,30,2,16,2,3,80,,,,,,,,,,,,30,2,17,2,1,26,,,,,,,,,,,,30,2,19,2,1,26,,,,,,,,,,,,30,2,23,2,1,26,,,,,,,,,,,,30,3,1,1,2,110,,,,,,,,,,,,30,3,2,2,1,26,,,,,,,,,,,,30,3,4,2,1,41,,,,,,,,,,,,30,3,8,1,1,41,,,,,,,,,,,,30,3,11,2,1,26,,,,,,,,,,,,30,3,14,1,1,41,,,,,,,,,,,,30,3,18,2,2,110,,,,,,,,,,,,30,3,22,2,3,80,,,,,,,,,,,,31,1,3,2,1,145,,,,,,,,,,,,31,1,5,1,2,65,,,,,,,,,,,,31,1,6,1,1,145,,,,,,,,,,,,31,1,12,2,3,80,,,,,,,,,,,,31,1,13,1,1,145,,,,,,,,,,,,31,1,15,1,2,104,,,,,,,,,,,,31,1,20,1,3,80,,,,,,,,,,,,31,1,21,1,3,80,,,,,,,,,,,,31,2,0,2,1,145,,,,,,,,,,,,31,2,7,2,3,80,,,,,,,,,,,,31,2,9,1,3,80,,,,,,,,,,,,31,2,10,2,2,65,,,,,,,,,,,,31,2,16,1,3,80,,,,,,,,,,,,31,2,17,1,2,65,,,,,,,,,,,,31,2,19,1,2,65,,,,,,,,,,,,31,2,23,1,3,80,,,,,,,,,,,,31,3,1,1,1,145,,,,,,,,,,,,31,3,2,1,2,65,,,,,,,,,,,,31,3,4,1,2,65,,,,,,,,,,,,31,3,8,1,2,65,,,,,,,,,,,,31,3,11,1,3,80,,,,,,,,,,,,31,3,14,2,2,65,,,,,,,,,,,,31,3,18,1,2,65,,,,,,,,,,,,31,3,22,1,3,80,,,,,,,,,,,,32,1,3,2,1,165,,,,,,,,,,,,32,1,5,2,1,165,,,,,,,,,,,,32,1,6,2,2,45,,,,,,,,,,,,32,1,12,1,2,84,,,,,,,,,,,,32,1,13,1,2,84,,,,,,,,,,,,32,1,15,1,2,45,,,,,,,,,,,,32,1,20,1,2,45,,,,,,,,,,,,32,1,21,1,3,80,,,,,,,,,,,,32,2,0,1,2,84,,,,,,,,,,,,32,2,7,2,2,45,,,,,,,,,,,,32,2,9,1,3,80,,,,,,,,,,,,32,2,10,2,2,45,,,,,,,,,,,,32,2,16,1,3,80,,,,,,,,,,,,32,2,17,2,3,80,,,,,,,,,,,,32,2,19,1,3,80,,,,,,,,,,,,32,2,23,1,1,165,,,,,,,,,,,,32,3,1,2,1,92,,,,,,,,,,,,32,3,2,2,2,45,,,,,,,,,,,,32,3,4,1,2,45,,,,,,,,,,,,32,3,8,2,3,80,,,,,,,,,,,,32,3,11,1,3,80,,,,,,,,,,,,32,3,14,2,3,80,,,,,,,,,,,,32,3,18,2,3,80,,,,,,,,,,,,32,3,22,1,3,80,,,,,,,,,,,,33,1,3,1,3,80,,,,,,,,,,,,33,1,5,2,1,81,,,,,,,,,,,,33,1,6,2,3,80,,,,,,,,,,,,33,1,12,2,2,70,,,,,,,,,,,,33,1,13,2,2,70,,,,,,,,,,,,33,1,15,2,3,80,,,,,,,,,,,,33,1,20,1,2,70,,,,,,,,,,,,33,1,21,1,1,66,,,,,,,,,,,,33,2,0,2,2,35,,,,,,,,,,,,33,2,7,1,2,70,,,,,,,,,,,,33,2,9,2,2,70,,,,,,,,,,,,33,2,10,1,1,66,,,,,,,,,,,,33,2,16,1,1,66,,,,,,,,,,,,33,2,17,1,3,80,,,,,,,,,,,,33,2,19,2,3,80,,,,,,,,,,,,33,2,23,2,1,81,,,,,,,,,,,,33,3,1,2,3,80,,,,,,,,,,,,33,3,2,2,1,66,,,,,,,,,,,,33,3,4,2,3,80,,,,,,,,,,,,33,3,8,2,2,70,,,,,,,,,,,,33,3,11,2,3,80,,,,,,,,,,,,33,3,14,1,2,70,,,,,,,,,,,,33,3,18,2,1,81,,,,,,,,,,,,33,3,22,2,3,80,,,,,,,,,,,,34,1,3,2,3,80,,,,,,,,,,,,34,1,5,1,2,144,,,,,,,,,,,,34,1,6,2,3,80,,,,,,,,,,,,34,1,12,1,3,80,,,,,,,,,,,,34,1,13,1,3,80,,,,,,,,,,,,34,1,15,1,3,80,,,,,,,,,,,,34,1,20,1,3,80,,,,,,,,,,,,34,1,21,2,1,185,,,,,,,,,,,,34,2,0,1,2,25,,,,,,,,,,,,34,2,7,1,1,32,,,,,,,,,,,,34,2,9,1,1,185,,,,,,,,,,,,34,2,10,2,1,185,,,,,,,,,,,,34,2,16,1,2,25,,,,,,,,,,,,34,2,17,1,1,32,,,,,,,,,,,,34,2,19,1,3,80,,,,,,,,,,,,34,2,23,2,2,25,,,,,,,,,,,,34,3,1,1,3,80,,,,,,,,,,,,34,3,2,1,1,185,,,,,,,,,,,,34,3,4,1,1,185,,,,,,,,,,,,34,3,8,1,2,25,,,,,,,,,,,,34,3,11,1,1,185,,,,,,,,,,,,34,3,14,2,1,185,,,,,,,,,,,,34,3,18,1,1,185,,,,,,,,,,,,34,3,22,1,2,25,,,,,,,,,,,,35,1,3,1,1,125,,,,,,,,,,,,35,1,5,1,2,85,,,,,,,,,,,,35,1,6,1,3,80,,,,,,,,,,,,35,1,12,1,2,85,,,,,,,,,,,,35,1,13,1,2,85,,,,,,,,,,,,35,1,15,1,3,80,,,,,,,,,,,,35,1,20,2,2,85,,,,,,,,,,,,35,1,21,1,1,125,,,,,,,,,,,,35,2,0,1,1,125,,,,,,,,,,,,35,2,7,2,1,125,,,,,,,,,,,,35,2,9,1,1,125,,,,,,,,,,,,35,2,10,1,3,80,,,,,,,,,,,,35,2,16,1,1,125,,,,,,,,,,,,35,2,17,1,1,32,,,,,,,,,,,,35,2,19,1,3,80,,,,,,,,,,,,35,2,23,1,3,80,,,,,,,,,,,,35,3,1,1,1,125,,,,,,,,,,,,35,3,2,1,3,0,,,,,,,,,,,,35,3,4,1,2,85,,,,,,,,,,,,35,3,8,1,1,32,,,,,,,,,,,,35,3,11,1,1,125,,,,,,,,,,,,35,3,14,2,1,125,,,,,,,,,,,,35,3,18,1,1,125,,,,,,,,,,,,35,3,22,1,2,85,,,,,,,,,,,,36,1,3,2,2,144,,,,,,,,,,,,36,1,5,1,2,45,,,,,,,,,,,,36,1,6,1,2,45,,,,,,,,,,,,36,1,12,1,2,144,,,,,,,,,,,,36,1,13,1,1,165,,,,,,,,,,,,36,1,15,2,2,45,,,,,,,,,,,,36,1,20,1,1,165,,,,,,,,,,,,36,1,21,1,2,45,,,,,,,,,,,,36,2,0,1,2,45,,,,,,,,,,,,36,2,7,1,2,45,,,,,,,,,,,,36,2,9,1,2,144,,,,,,,,,,,,36,2,10,2,3,80,,,,,,,,,,,,36,2,16,2,3,80,,,,,,,,,,,,36,2,17,2,2,144,,,,,,,,,,,,36,2,19,1,1,165,,,,,,,,,,,,36,2,23,1,1,32,,,,,,,,,,,,36,3,1,1,3,80,,,,,,,,,,,,36,3,2,1,3,80,,,,,,,,,,,,36,3,4,1,3,80,,,,,,,,,,,,36,3,8,1,1,165,,,,,,,,,,,,36,3,11,1,2,45,,,,,,,,,,,,36,3,14,2,2,45,,,,,,,,,,,,36,3,18,1,3,80,,,,,,,,,,,,36,3,22,1,2,144,,,,,,,,,,,,37,1,3,1,1,26,,,,,,,,,,,,37,1,5,2,1,21,,,,,,,,,,,,37,1,6,2,3,80,,,,,,,,,,,,37,1,12,2,1,26,,,,,,,,,,,,37,1,13,2,3,80,,,,,,,,,,,,37,1,15,2,1,26,,,,,,,,,,,,37,1,20,2,1,26,,,,,,,,,,,,37,1,21,2,3,80,,,,,,,,,,,,37,2,0,1,2,100,,,,,,,,,,,,37,2,7,2,2,95,,,,,,,,,,,,37,2,9,2,1,21,,,,,,,,,,,,37,2,10,1,1,26,,,,,,,,,,,,37,2,16,2,1,21,,,,,,,,,,,,37,2,17,2,3,80,,,,,,,,,,,,37,2,19,2,3,80,,,,,,,,,,,,37,2,23,1,2,100,,,,,,,,,,,,37,3,1,2,3,80,,,,,,,,,,,,37,3,2,2,3,80,,,,,,,,,,,,37,3,4,2,3,80,,,,,,,,,,,,37,3,8,2,1,26,,,,,,,,,,,,37,3,11,2,2,100,,,,,,,,,,,,37,3,14,2,1,26,,,,,,,,,,,,37,3,18,2,2,100,,,,,,,,,,,,37,3,22,2,1,26,,,,,,,,,,,,38,1,3,2,2,130,,,,,,,,,,,,38,1,5,1,1,290,,,,,,,,,,,,38,1,6,1,3,80,,,,,,,,,,,,38,1,12,1,1,290,,,,,,,,,,,,38,1,13,1,2,130,,,,,,,,,,,,38,1,15,1,2,130,,,,,,,,,,,,38,1,20,1,2,130,,,,,,,,,,,,38,1,21,1,2,130,,,,,,,,,,,,38,2,0,2,3,80,,,,,,,,,,,,38,2,7,1,1,290,,,,,,,,,,,,38,2,9,1,3,80,,,,,,,,,,,,38,2,10,1,2,208,,,,,,,,,,,,38,2,16,2,3,80,,,,,,,,,,,,38,2,17,1,2,130,,,,,,,,,,,,38,2,19,1,2,208,,,,,,,,,,,,38,2,23,1,1,290,,,,,,,,,,,,38,3,1,1,2,130,,,,,,,,,,,,38,3,2,1,1,144,,,,,,,,,,,,38,3,4,1,2,130,,,,,,,,,,,,38,3,8,1,1,290,,,,,,,,,,,,38,3,11,1,3,80,,,,,,,,,,,,38,3,14,2,2,130,,,,,,,,,,,,38,3,18,2,3,80,,,,,,,,,,,,38,3,22,1,3,80